task,instructions,thisN,thisTrialN,thisRepN,word,color,key_resp_instrucctions.keys,key_resp_instrucctions.rt,key_resp_instrucctions.duration,key_resp.keys,key_resp.rt,key_resp.duration,blocks.thisRepN,blocks.thisTrialN,blocks.thisN,blocks.thisIndex,trials.thisRepN,trials.thisTrialN,trials.thisN,trials.thisIndex,thisRow.t,notes,welcome.started,welcome_text.started,welcome_key.started,welcome.stopped,welcome_key.keys,welcome_key.rt,welcome_key.duration,instructions.started,text_instructions.started,key_resp_instrucctions.started,instructions.stopped,blocks.key_resp_instrucctions.keys,blocks.key_resp_instrucctions.rt,blocks.key_resp_instrucctions.duration,stimulus.started,stimuli.started,key_resp.started,stimuli.stopped,stimulus.stopped,trials.key_resp.keys,trials.key_resp.rt,trials.key_resp.duration,goodbye.started,goodbye_text.started,goodbye_response.started,goodbye.stopped,goodbye_response.keys,goodbye_response.rt,goodbye_response.duration,participant,session,date,expName,psychopyVersion,frameRate,expStart,
,,,,,,,,,,,,,,,,,,,,,,,0.003312499960884452,0.011402799980714917,0.011402799980714917,0.6921424999600276,space,0.6756072000134736,None,,,,,,,,,,,,,,,,,,,,,,,659698,001,2025-08-05_18h16.20.548,Self,2024.2.4,175.9683538397127,2025-08-05 18h16.24.532182 +0100,
identity,"In the following task, you will need to report the identity of the word. 
- If the word is self, press j
- If the word is friend, press k
- If the word is other, press l

press the space key to start",0,0,0,friend,blue,space,1.6111525000305846,None,j,2.1294993999181315,None,0,0,0,1,0,0,0,1,2.34019909997005,,,,,,,,,0.71045279991813,0.7146835998864844,0.7146835998864844,2.3321570999687538,space,1.6111525000305846,None,2.3372301999479532,2.34019909997005,2.34019909997005,4.331091200001538,4.4711059998953715,j,2.1294993999181315,None,,,,,,,,659698,001,2025-08-05_18h16.20.548,Self,2024.2.4,175.9683538397127,2025-08-05 18h16.24.532182 +0100,
identity,"In the following task, you will need to report the identity of the word. 
- If the word is self, press j
- If the word is friend, press k
- If the word is other, press l

press the space key to start",1,1,0,other,green,space,1.6111525000305846,None,k,0.7804365999763831,None,0,0,0,1,0,1,1,2,4.477663099998608,,,,,,,,,,,,,,,,4.472737399977632,4.477663099998608,4.477663099998608,,5.259159899898805,k,0.7804365999763831,None,,,,,,,,659698,001,2025-08-05_18h16.20.548,Self,2024.2.4,175.9683538397127,2025-08-05 18h16.24.532182 +0100,
identity,"In the following task, you will need to report the identity of the word. 
- If the word is self, press j
- If the word is friend, press k
- If the word is other, press l

press the space key to start",2,2,0,self,red,space,1.6111525000305846,None,l,0.6129473999608308,None,0,0,0,1,0,2,2,0,5.266069199889898,,,,,,,,,,,,,,,,5.262938899919391,5.266069199889898,5.266069199889898,,5.882720199995674,l,0.6129473999608308,None,,,,,,,,659698,001,2025-08-05_18h16.20.548,Self,2024.2.4,175.9683538397127,2025-08-05 18h16.24.532182 +0100,
identity,"In the following task, you will need to report the identity of the word. 
- If the word is self, press j
- If the word is friend, press k
- If the word is other, press l

press the space key to start",0,0,0,,,space,1.6111525000305846,None,,,,0,0,0,1,,,,,,,,,,,,,,,,,,,,,,,,,,,,,,,,,,,,659698,001,2025-08-05_18h16.20.548,Self,2024.2.4,175.9683538397127,2025-08-05 18h16.24.532182 +0100,
color,"In the following task, you will need to report the color of the word. 
- If the word is presented in blue, press j
- If the word is presented in red, press k
- If the word is presented in green, press l

press the space key to start",0,0,0,friend,blue,space,3.935956300003454,None,j,0.7570120000746101,None,0,1,1,0,0,0,0,1,9.842133399914019,,,,,,,,,5.887714499956928,5.8911856999620795,5.8911856999620795,9.83306749991607,space,3.935956300003454,None,9.838787899934687,9.842133399914019,9.842133399914019,,10.602813599980436,j,0.7570120000746101,None,,,,,,,,659698,001,2025-08-05_18h16.20.548,Self,2024.2.4,175.9683538397127,2025-08-05 18h16.24.532182 +0100,
color,"In the following task, you will need to report the color of the word. 
- If the word is presented in blue, press j
- If the word is presented in red, press k
- If the word is presented in green, press l

press the space key to start",1,1,0,other,green,space,3.935956300003454,None,k,0.5532559000421315,None,0,1,1,0,0,1,1,2,10.60891999991145,,,,,,,,,,,,,,,,10.604447599966079,10.60891999991145,10.60891999991145,,11.166469799936749,k,0.5532559000421315,None,,,,,,,,659698,001,2025-08-05_18h16.20.548,Self,2024.2.4,175.9683538397127,2025-08-05 18h16.24.532182 +0100,
color,"In the following task, you will need to report the color of the word. 
- If the word is presented in blue, press j
- If the word is presented in red, press k
- If the word is presented in green, press l

press the space key to start",2,2,0,self,red,space,3.935956300003454,None,l,0.33738819998688996,None,0,1,1,0,0,2,2,0,11.172446599928662,,,,,,,,,,,,,,,,11.168202999979258,11.172446599928662,11.172446599928662,,11.513371199951507,l,0.33738819998688996,None,,,,,,,,659698,001,2025-08-05_18h16.20.548,Self,2024.2.4,175.9683538397127,2025-08-05 18h16.24.532182 +0100,
color,"In the following task, you will need to report the color of the word. 
- If the word is presented in blue, press j
- If the word is presented in red, press k
- If the word is presented in green, press l

press the space key to start",1,1,0,,,space,3.935956300003454,None,,,,0,1,1,0,,,,,,,,,,,,,,,,,,,,,,,,,,,,,,,,,,,,659698,001,2025-08-05_18h16.20.548,Self,2024.2.4,175.9683538397127,2025-08-05 18h16.24.532182 +0100,
identity,"In the following task, you will need to report the identity of the word. 
- If the word is self, press j
- If the word is friend, press k
- If the word is other, press l

press the space key to start",0,0,0,other,green,space,74.80920339992736,None,j,4.079059900017455,None,1,0,2,1,0,0,0,2,86.34373879991472,,,,,,,,,11.520713399979286,11.524185299989767,11.524185299989767,86.3357775999466,space,74.80920339992736,None,86.3408242999576,86.34373879991472,86.34373879991472,88.3348225998925,90.42581819999032,j,4.079059900017455,None,,,,,,,,659698,001,2025-08-05_18h16.20.548,Self,2024.2.4,175.9683538397127,2025-08-05 18h16.24.532182 +0100,
identity,"In the following task, you will need to report the identity of the word. 
- If the word is self, press j
- If the word is friend, press k
- If the word is other, press l

press the space key to start",1,1,0,self,red,space,74.80920339992736,None,j,0.49668039998505265,None,1,0,2,1,0,1,1,0,90.4318850999698,,,,,,,,,,,,,,,,90.4276261999039,90.4318850999698,90.4318850999698,,90.92960659996606,j,0.49668039998505265,None,,,,,,,,659698,001,2025-08-05_18h16.20.548,Self,2024.2.4,175.9683538397127,2025-08-05 18h16.24.532182 +0100,
identity,"In the following task, you will need to report the identity of the word. 
- If the word is self, press j
- If the word is friend, press k
- If the word is other, press l

press the space key to start",2,2,0,friend,blue,space,74.80920339992736,None,j,0.5123398000141606,None,1,0,2,1,0,2,2,1,90.93582119990606,,,,,,,,,,,,,,,,90.9311805999605,90.93582119990606,90.93582119990606,,91.45117189991288,j,0.5123398000141606,None,,,,,,,,659698,001,2025-08-05_18h16.20.548,Self,2024.2.4,175.9683538397127,2025-08-05 18h16.24.532182 +0100,
identity,"In the following task, you will need to report the identity of the word. 
- If the word is self, press j
- If the word is friend, press k
- If the word is other, press l

press the space key to start",2,0,1,,,space,74.80920339992736,None,,,,1,0,2,1,,,,,,,,,,,,,,,,,,,,,,,,,,,,,,,,,,,,659698,001,2025-08-05_18h16.20.548,Self,2024.2.4,175.9683538397127,2025-08-05 18h16.24.532182 +0100,
color,"In the following task, you will need to report the color of the word. 
- If the word is presented in blue, press j
- If the word is presented in red, press k
- If the word is presented in green, press l

press the space key to start",0,0,0,self,red,space,0.9638433000072837,None,j,1.1285599999828264,None,1,1,3,0,0,0,0,0,92.43532199994661,,,,,,,,,91.45650979992934,91.46097469993401,91.46097469993401,92.42587719997391,space,0.9638433000072837,None,92.43154039990623,92.43532199994661,92.43532199994661,,93.56519239989575,j,1.1285599999828264,None,,,,,,,,659698,001,2025-08-05_18h16.20.548,Self,2024.2.4,175.9683538397127,2025-08-05 18h16.24.532182 +0100,
color,"In the following task, you will need to report the color of the word. 
- If the word is presented in blue, press j
- If the word is presented in red, press k
- If the word is presented in green, press l

press the space key to start",1,1,0,friend,blue,space,0.9638433000072837,None,j,0.3768642999930307,None,1,1,3,0,0,1,1,1,93.57096519996412,,,,,,,,,,,,,,,,93.56684639991727,93.57096519996412,93.57096519996412,,93.95277859992348,j,0.3768642999930307,None,,,,,,,,659698,001,2025-08-05_18h16.20.548,Self,2024.2.4,175.9683538397127,2025-08-05 18h16.24.532182 +0100,
color,"In the following task, you will need to report the color of the word. 
- If the word is presented in blue, press j
- If the word is presented in red, press k
- If the word is presented in green, press l

press the space key to start",2,2,0,other,green,space,0.9638433000072837,None,j,0.3547785000409931,None,1,1,3,0,0,2,2,2,93.95885879988782,,,,,,,,,,,,,,,,93.95451319997665,93.95885879988782,93.95885879988782,,94.31701699993573,j,0.3547785000409931,None,,,,,,,,659698,001,2025-08-05_18h16.20.548,Self,2024.2.4,175.9683538397127,2025-08-05 18h16.24.532182 +0100,
color,"In the following task, you will need to report the color of the word. 
- If the word is presented in blue, press j
- If the word is presented in red, press k
- If the word is presented in green, press l

press the space key to start",3,1,1,,,space,0.9638433000072837,None,,,,1,1,3,0,,,,,,,,,,,,,,,,,,,,,,,,,,,,,,,,,,,,659698,001,2025-08-05_18h16.20.548,Self,2024.2.4,175.9683538397127,2025-08-05 18h16.24.532182 +0100,
,,,,,,,,,,,,,,,,,,,,,,,,,,,,,,,,,,,,,,,,,,,,,94.31860839994624,94.32303159998264,94.32303159998264,94.98268899996765,space,0.6547830000054091,None,659698,001,2025-08-05_18h16.20.548,Self,2024.2.4,175.9683538397127,2025-08-05 18h16.24.532182 +0100,
